success,timeout,failed_images,failed_audio,failed_video,trial_type,trial_index,plugin_version,time_elapsed,rt,stimulus,response,load_time,path,trialType,extension_type,extension_version,webgazer_targets,x,y,t
,,,,,image-keyboard-response,6,2.1.0,28524,5657.0,/001.jpg, ,,/001.jpg,image,"[""webgazer""]","[""1.2.0""]","{""#jspsych-image-keyboard-response-stimulus"":{""x"":602.5,""y"":-12,""width"":700,""height"":933,""top"":-12,""right"":1302.5,""bottom"":921,""left"":602.5}}",559,306,8
,,,,,image-keyboard-response,6,2.1.0,28524,5657.0,/001.jpg, ,,/001.jpg,image,"[""webgazer""]","[""1.2.0""]","{""#jspsych-image-keyboard-response-stimulus"":{""x"":602.5,""y"":-12,""width"":700,""height"":933,""top"":-12,""right"":1302.5,""bottom"":921,""left"":602.5}}",661,347,95
,,,,,image-keyboard-response,6,2.1.0,28524,5657.0,/001.jpg, ,,/001.jpg,image,"[""webgazer""]","[""1.2.0""]","{""#jspsych-image-keyboard-response-stimulus"":{""x"":602.5,""y"":-12,""width"":700,""height"":933,""top"":-12,""right"":1302.5,""bottom"":921,""left"":602.5}}",694,369,112
,,,,,image-keyboard-response,6,2.1.0,28524,5657.0,/001.jpg, ,,/001.jpg,image,"[""webgazer""]","[""1.2.0""]","{""#jspsych-image-keyboard-response-stimulus"":{""x"":602.5,""y"":-12,""width"":700,""height"":933,""top"":-12,""right"":1302.5,""bottom"":921,""left"":602.5}}",755,398,143
,,,,,image-keyboard-response,6,2.1.0,28524,5657.0,/001.jpg, ,,/001.jpg,image,"[""webgazer""]","[""1.2.0""]","{""#jspsych-image-keyboard-response-stimulus"":{""x"":602.5,""y"":-12,""width"":700,""height"":933,""top"":-12,""right"":1302.5,""bottom"":921,""left"":602.5}}",771,427,177
,,,,,image-keyboard-response,6,2.1.0,28524,5657.0,/001.jpg, ,,/001.jpg,image,"[""webgazer""]","[""1.2.0""]","{""#jspsych-image-keyboard-response-stimulus"":{""x"":602.5,""y"":-12,""width"":700,""height"":933,""top"":-12,""right"":1302.5,""bottom"":921,""left"":602.5}}",817,447,211
,,,,,image-keyboard-response,6,2.1.0,28524,5657.0,/001.jpg, ,,/001.jpg,image,"[""webgazer""]","[""1.2.0""]","{""#jspsych-image-keyboard-response-stimulus"":{""x"":602.5,""y"":-12,""width"":700,""height"":933,""top"":-12,""right"":1302.5,""bottom"":921,""left"":602.5}}",846,456,246
,,,,,image-keyboard-response,6,2.1.0,28524,5657.0,/001.jpg, ,,/001.jpg,image,"[""webgazer""]","[""1.2.0""]","{""#jspsych-image-keyboard-response-stimulus"":{""x"":602.5,""y"":-12,""width"":700,""height"":933,""top"":-12,""right"":1302.5,""bottom"":921,""left"":602.5}}",869,557,279
,,,,,image-keyboard-response,6,2.1.0,28524,5657.0,/001.jpg, ,,/001.jpg,image,"[""webgazer""]","[""1.2.0""]","{""#jspsych-image-keyboard-response-stimulus"":{""x"":602.5,""y"":-12,""width"":700,""height"":933,""top"":-12,""right"":1302.5,""bottom"":921,""left"":602.5}}",928,728,314
,,,,,image-keyboard-response,6,2.1.0,28524,5657.0,/001.jpg, ,,/001.jpg,image,"[""webgazer""]","[""1.2.0""]","{""#jspsych-image-keyboard-response-stimulus"":{""x"":602.5,""y"":-12,""width"":700,""height"":933,""top"":-12,""right"":1302.5,""bottom"":921,""left"":602.5}}",1001,881,347
,,,,,image-keyboard-response,6,2.1.0,28524,5657.0,/001.jpg, ,,/001.jpg,image,"[""webgazer""]","[""1.2.0""]","{""#jspsych-image-keyboard-response-stimulus"":{""x"":602.5,""y"":-12,""width"":700,""height"":933,""top"":-12,""right"":1302.5,""bottom"":921,""left"":602.5}}",1015,955,381
,,,,,image-keyboard-response,6,2.1.0,28524,5657.0,/001.jpg, ,,/001.jpg,image,"[""webgazer""]","[""1.2.0""]","{""#jspsych-image-keyboard-response-stimulus"":{""x"":602.5,""y"":-12,""width"":700,""height"":933,""top"":-12,""right"":1302.5,""bottom"":921,""left"":602.5}}",1050,971,415
,,,,,image-keyboard-response,6,2.1.0,28524,5657.0,/001.jpg, ,,/001.jpg,image,"[""webgazer""]","[""1.2.0""]","{""#jspsych-image-keyboard-response-stimulus"":{""x"":602.5,""y"":-12,""width"":700,""height"":933,""top"":-12,""right"":1302.5,""bottom"":921,""left"":602.5}}",1047,923,449
,,,,,image-keyboard-response,6,2.1.0,28524,5657.0,/001.jpg, ,,/001.jpg,image,"[""webgazer""]","[""1.2.0""]","{""#jspsych-image-keyboard-response-stimulus"":{""x"":602.5,""y"":-12,""width"":700,""height"":933,""top"":-12,""right"":1302.5,""bottom"":921,""left"":602.5}}",990,886,483
,,,,,image-keyboard-response,6,2.1.0,28524,5657.0,/001.jpg, ,,/001.jpg,image,"[""webgazer""]","[""1.2.0""]","{""#jspsych-image-keyboard-response-stimulus"":{""x"":602.5,""y"":-12,""width"":700,""height"":933,""top"":-12,""right"":1302.5,""bottom"":921,""left"":602.5}}",957,827,517
,,,,,image-keyboard-response,6,2.1.0,28524,5657.0,/001.jpg, ,,/001.jpg,image,"[""webgazer""]","[""1.2.0""]","{""#jspsych-image-keyboard-response-stimulus"":{""x"":602.5,""y"":-12,""width"":700,""height"":933,""top"":-12,""right"":1302.5,""bottom"":921,""left"":602.5}}",917,751,551
,,,,,image-keyboard-response,6,2.1.0,28524,5657.0,/001.jpg, ,,/001.jpg,image,"[""webgazer""]","[""1.2.0""]","{""#jspsych-image-keyboard-response-stimulus"":{""x"":602.5,""y"":-12,""width"":700,""height"":933,""top"":-12,""right"":1302.5,""bottom"":921,""left"":602.5}}",872,660,585
,,,,,image-keyboard-response,6,2.1.0,28524,5657.0,/001.jpg, ,,/001.jpg,image,"[""webgazer""]","[""1.2.0""]","{""#jspsych-image-keyboard-response-stimulus"":{""x"":602.5,""y"":-12,""width"":700,""height"":933,""top"":-12,""right"":1302.5,""bottom"":921,""left"":602.5}}",809,584,619
,,,,,image-keyboard-response,6,2.1.0,28524,5657.0,/001.jpg, ,,/001.jpg,image,"[""webgazer""]","[""1.2.0""]","{""#jspsych-image-keyboard-response-stimulus"":{""x"":602.5,""y"":-12,""width"":700,""height"":933,""top"":-12,""right"":1302.5,""bottom"":921,""left"":602.5}}",773,506,653
,,,,,image-keyboard-response,6,2.1.0,28524,5657.0,/001.jpg, ,,/001.jpg,image,"[""webgazer""]","[""1.2.0""]","{""#jspsych-image-keyboard-response-stimulus"":{""x"":602.5,""y"":-12,""width"":700,""height"":933,""top"":-12,""right"":1302.5,""bottom"":921,""left"":602.5}}",724,427,688
,,,,,image-keyboard-response,6,2.1.0,28524,5657.0,/001.jpg, ,,/001.jpg,image,"[""webgazer""]","[""1.2.0""]","{""#jspsych-image-keyboard-response-stimulus"":{""x"":602.5,""y"":-12,""width"":700,""height"":933,""top"":-12,""right"":1302.5,""bottom"":921,""left"":602.5}}",689,371,721
,,,,,image-keyboard-response,6,2.1.0,28524,5657.0,/001.jpg, ,,/001.jpg,image,"[""webgazer""]","[""1.2.0""]","{""#jspsych-image-keyboard-response-stimulus"":{""x"":602.5,""y"":-12,""width"":700,""height"":933,""top"":-12,""right"":1302.5,""bottom"":921,""left"":602.5}}",675,333,756
,,,,,image-keyboard-response,6,2.1.0,28524,5657.0,/001.jpg, ,,/001.jpg,image,"[""webgazer""]","[""1.2.0""]","{""#jspsych-image-keyboard-response-stimulus"":{""x"":602.5,""y"":-12,""width"":700,""height"":933,""top"":-12,""right"":1302.5,""bottom"":921,""left"":602.5}}",647,316,789
,,,,,image-keyboard-response,6,2.1.0,28524,5657.0,/001.jpg, ,,/001.jpg,image,"[""webgazer""]","[""1.2.0""]","{""#jspsych-image-keyboard-response-stimulus"":{""x"":602.5,""y"":-12,""width"":700,""height"":933,""top"":-12,""right"":1302.5,""bottom"":921,""left"":602.5}}",628,275,823
,,,,,image-keyboard-response,6,2.1.0,28524,5657.0,/001.jpg, ,,/001.jpg,image,"[""webgazer""]","[""1.2.0""]","{""#jspsych-image-keyboard-response-stimulus"":{""x"":602.5,""y"":-12,""width"":700,""height"":933,""top"":-12,""right"":1302.5,""bottom"":921,""left"":602.5}}",634,274,857
,,,,,image-keyboard-response,6,2.1.0,28524,5657.0,/001.jpg, ,,/001.jpg,image,"[""webgazer""]","[""1.2.0""]","{""#jspsych-image-keyboard-response-stimulus"":{""x"":602.5,""y"":-12,""width"":700,""height"":933,""top"":-12,""right"":1302.5,""bottom"":921,""left"":602.5}}",700,225,891
,,,,,image-keyboard-response,6,2.1.0,28524,5657.0,/001.jpg, ,,/001.jpg,image,"[""webgazer""]","[""1.2.0""]","{""#jspsych-image-keyboard-response-stimulus"":{""x"":602.5,""y"":-12,""width"":700,""height"":933,""top"":-12,""right"":1302.5,""bottom"":921,""left"":602.5}}",759,193,926
,,,,,image-keyboard-response,6,2.1.0,28524,5657.0,/001.jpg, ,,/001.jpg,image,"[""webgazer""]","[""1.2.0""]","{""#jspsych-image-keyboard-response-stimulus"":{""x"":602.5,""y"":-12,""width"":700,""height"":933,""top"":-12,""right"":1302.5,""bottom"":921,""left"":602.5}}",818,159,961
,,,,,image-keyboard-response,6,2.1.0,28524,5657.0,/001.jpg, ,,/001.jpg,image,"[""webgazer""]","[""1.2.0""]","{""#jspsych-image-keyboard-response-stimulus"":{""x"":602.5,""y"":-12,""width"":700,""height"":933,""top"":-12,""right"":1302.5,""bottom"":921,""left"":602.5}}",867,135,994
,,,,,image-keyboard-response,6,2.1.0,28524,5657.0,/001.jpg, ,,/001.jpg,image,"[""webgazer""]","[""1.2.0""]","{""#jspsych-image-keyboard-response-stimulus"":{""x"":602.5,""y"":-12,""width"":700,""height"":933,""top"":-12,""right"":1302.5,""bottom"":921,""left"":602.5}}",898,112,1028
,,,,,image-keyboard-response,6,2.1.0,28524,5657.0,/001.jpg, ,,/001.jpg,image,"[""webgazer""]","[""1.2.0""]","{""#jspsych-image-keyboard-response-stimulus"":{""x"":602.5,""y"":-12,""width"":700,""height"":933,""top"":-12,""right"":1302.5,""bottom"":921,""left"":602.5}}",929,98,1062
,,,,,image-keyboard-response,6,2.1.0,28524,5657.0,/001.jpg, ,,/001.jpg,image,"[""webgazer""]","[""1.2.0""]","{""#jspsych-image-keyboard-response-stimulus"":{""x"":602.5,""y"":-12,""width"":700,""height"":933,""top"":-12,""right"":1302.5,""bottom"":921,""left"":602.5}}",940,83,1097
,,,,,image-keyboard-response,6,2.1.0,28524,5657.0,/001.jpg, ,,/001.jpg,image,"[""webgazer""]","[""1.2.0""]","{""#jspsych-image-keyboard-response-stimulus"":{""x"":602.5,""y"":-12,""width"":700,""height"":933,""top"":-12,""right"":1302.5,""bottom"":921,""left"":602.5}}",948,74,1131
,,,,,image-keyboard-response,6,2.1.0,28524,5657.0,/001.jpg, ,,/001.jpg,image,"[""webgazer""]","[""1.2.0""]","{""#jspsych-image-keyboard-response-stimulus"":{""x"":602.5,""y"":-12,""width"":700,""height"":933,""top"":-12,""right"":1302.5,""bottom"":921,""left"":602.5}}",953,70,1165
,,,,,image-keyboard-response,6,2.1.0,28524,5657.0,/001.jpg, ,,/001.jpg,image,"[""webgazer""]","[""1.2.0""]","{""#jspsych-image-keyboard-response-stimulus"":{""x"":602.5,""y"":-12,""width"":700,""height"":933,""top"":-12,""right"":1302.5,""bottom"":921,""left"":602.5}}",979,66,1198
,,,,,image-keyboard-response,6,2.1.0,28524,5657.0,/001.jpg, ,,/001.jpg,image,"[""webgazer""]","[""1.2.0""]","{""#jspsych-image-keyboard-response-stimulus"":{""x"":602.5,""y"":-12,""width"":700,""height"":933,""top"":-12,""right"":1302.5,""bottom"":921,""left"":602.5}}",1025,77,1232
,,,,,image-keyboard-response,6,2.1.0,28524,5657.0,/001.jpg, ,,/001.jpg,image,"[""webgazer""]","[""1.2.0""]","{""#jspsych-image-keyboard-response-stimulus"":{""x"":602.5,""y"":-12,""width"":700,""height"":933,""top"":-12,""right"":1302.5,""bottom"":921,""left"":602.5}}",1056,86,1267
,,,,,image-keyboard-response,6,2.1.0,28524,5657.0,/001.jpg, ,,/001.jpg,image,"[""webgazer""]","[""1.2.0""]","{""#jspsych-image-keyboard-response-stimulus"":{""x"":602.5,""y"":-12,""width"":700,""height"":933,""top"":-12,""right"":1302.5,""bottom"":921,""left"":602.5}}",1086,89,1300
,,,,,image-keyboard-response,6,2.1.0,28524,5657.0,/001.jpg, ,,/001.jpg,image,"[""webgazer""]","[""1.2.0""]","{""#jspsych-image-keyboard-response-stimulus"":{""x"":602.5,""y"":-12,""width"":700,""height"":933,""top"":-12,""right"":1302.5,""bottom"":921,""left"":602.5}}",1117,105,1333
,,,,,image-keyboard-response,6,2.1.0,28524,5657.0,/001.jpg, ,,/001.jpg,image,"[""webgazer""]","[""1.2.0""]","{""#jspsych-image-keyboard-response-stimulus"":{""x"":602.5,""y"":-12,""width"":700,""height"":933,""top"":-12,""right"":1302.5,""bottom"":921,""left"":602.5}}",1146,123,1368
,,,,,image-keyboard-response,6,2.1.0,28524,5657.0,/001.jpg, ,,/001.jpg,image,"[""webgazer""]","[""1.2.0""]","{""#jspsych-image-keyboard-response-stimulus"":{""x"":602.5,""y"":-12,""width"":700,""height"":933,""top"":-12,""right"":1302.5,""bottom"":921,""left"":602.5}}",1146,128,1402
,,,,,image-keyboard-response,6,2.1.0,28524,5657.0,/001.jpg, ,,/001.jpg,image,"[""webgazer""]","[""1.2.0""]","{""#jspsych-image-keyboard-response-stimulus"":{""x"":602.5,""y"":-12,""width"":700,""height"":933,""top"":-12,""right"":1302.5,""bottom"":921,""left"":602.5}}",1166,125,1435
,,,,,image-keyboard-response,6,2.1.0,28524,5657.0,/001.jpg, ,,/001.jpg,image,"[""webgazer""]","[""1.2.0""]","{""#jspsych-image-keyboard-response-stimulus"":{""x"":602.5,""y"":-12,""width"":700,""height"":933,""top"":-12,""right"":1302.5,""bottom"":921,""left"":602.5}}",1143,136,1469
,,,,,image-keyboard-response,6,2.1.0,28524,5657.0,/001.jpg, ,,/001.jpg,image,"[""webgazer""]","[""1.2.0""]","{""#jspsych-image-keyboard-response-stimulus"":{""x"":602.5,""y"":-12,""width"":700,""height"":933,""top"":-12,""right"":1302.5,""bottom"":921,""left"":602.5}}",1120,204,1503
,,,,,image-keyboard-response,6,2.1.0,28524,5657.0,/001.jpg, ,,/001.jpg,image,"[""webgazer""]","[""1.2.0""]","{""#jspsych-image-keyboard-response-stimulus"":{""x"":602.5,""y"":-12,""width"":700,""height"":933,""top"":-12,""right"":1302.5,""bottom"":921,""left"":602.5}}",1103,249,1536
,,,,,image-keyboard-response,6,2.1.0,28524,5657.0,/001.jpg, ,,/001.jpg,image,"[""webgazer""]","[""1.2.0""]","{""#jspsych-image-keyboard-response-stimulus"":{""x"":602.5,""y"":-12,""width"":700,""height"":933,""top"":-12,""right"":1302.5,""bottom"":921,""left"":602.5}}",1094,394,1571
,,,,,image-keyboard-response,6,2.1.0,28524,5657.0,/001.jpg, ,,/001.jpg,image,"[""webgazer""]","[""1.2.0""]","{""#jspsych-image-keyboard-response-stimulus"":{""x"":602.5,""y"":-12,""width"":700,""height"":933,""top"":-12,""right"":1302.5,""bottom"":921,""left"":602.5}}",1090,569,1605
,,,,,image-keyboard-response,6,2.1.0,28524,5657.0,/001.jpg, ,,/001.jpg,image,"[""webgazer""]","[""1.2.0""]","{""#jspsych-image-keyboard-response-stimulus"":{""x"":602.5,""y"":-12,""width"":700,""height"":933,""top"":-12,""right"":1302.5,""bottom"":921,""left"":602.5}}",1101,705,1639
,,,,,image-keyboard-response,6,2.1.0,28524,5657.0,/001.jpg, ,,/001.jpg,image,"[""webgazer""]","[""1.2.0""]","{""#jspsych-image-keyboard-response-stimulus"":{""x"":602.5,""y"":-12,""width"":700,""height"":933,""top"":-12,""right"":1302.5,""bottom"":921,""left"":602.5}}",1075,812,1674
,,,,,image-keyboard-response,6,2.1.0,28524,5657.0,/001.jpg, ,,/001.jpg,image,"[""webgazer""]","[""1.2.0""]","{""#jspsych-image-keyboard-response-stimulus"":{""x"":602.5,""y"":-12,""width"":700,""height"":933,""top"":-12,""right"":1302.5,""bottom"":921,""left"":602.5}}",1033,811,1708
,,,,,image-keyboard-response,6,2.1.0,28524,5657.0,/001.jpg, ,,/001.jpg,image,"[""webgazer""]","[""1.2.0""]","{""#jspsych-image-keyboard-response-stimulus"":{""x"":602.5,""y"":-12,""width"":700,""height"":933,""top"":-12,""right"":1302.5,""bottom"":921,""left"":602.5}}",1050,790,1741
,,,,,image-keyboard-response,6,2.1.0,28524,5657.0,/001.jpg, ,,/001.jpg,image,"[""webgazer""]","[""1.2.0""]","{""#jspsych-image-keyboard-response-stimulus"":{""x"":602.5,""y"":-12,""width"":700,""height"":933,""top"":-12,""right"":1302.5,""bottom"":921,""left"":602.5}}",1006,711,1776
,,,,,image-keyboard-response,6,2.1.0,28524,5657.0,/001.jpg, ,,/001.jpg,image,"[""webgazer""]","[""1.2.0""]","{""#jspsych-image-keyboard-response-stimulus"":{""x"":602.5,""y"":-12,""width"":700,""height"":933,""top"":-12,""right"":1302.5,""bottom"":921,""left"":602.5}}",979,622,1809
,,,,,image-keyboard-response,6,2.1.0,28524,5657.0,/001.jpg, ,,/001.jpg,image,"[""webgazer""]","[""1.2.0""]","{""#jspsych-image-keyboard-response-stimulus"":{""x"":602.5,""y"":-12,""width"":700,""height"":933,""top"":-12,""right"":1302.5,""bottom"":921,""left"":602.5}}",961,520,1845
,,,,,image-keyboard-response,6,2.1.0,28524,5657.0,/001.jpg, ,,/001.jpg,image,"[""webgazer""]","[""1.2.0""]","{""#jspsych-image-keyboard-response-stimulus"":{""x"":602.5,""y"":-12,""width"":700,""height"":933,""top"":-12,""right"":1302.5,""bottom"":921,""left"":602.5}}",964,424,1877
,,,,,image-keyboard-response,6,2.1.0,28524,5657.0,/001.jpg, ,,/001.jpg,image,"[""webgazer""]","[""1.2.0""]","{""#jspsych-image-keyboard-response-stimulus"":{""x"":602.5,""y"":-12,""width"":700,""height"":933,""top"":-12,""right"":1302.5,""bottom"":921,""left"":602.5}}",968,323,1912
,,,,,image-keyboard-response,6,2.1.0,28524,5657.0,/001.jpg, ,,/001.jpg,image,"[""webgazer""]","[""1.2.0""]","{""#jspsych-image-keyboard-response-stimulus"":{""x"":602.5,""y"":-12,""width"":700,""height"":933,""top"":-12,""right"":1302.5,""bottom"":921,""left"":602.5}}",986,233,1945
,,,,,image-keyboard-response,6,2.1.0,28524,5657.0,/001.jpg, ,,/001.jpg,image,"[""webgazer""]","[""1.2.0""]","{""#jspsych-image-keyboard-response-stimulus"":{""x"":602.5,""y"":-12,""width"":700,""height"":933,""top"":-12,""right"":1302.5,""bottom"":921,""left"":602.5}}",1005,179,1979
,,,,,image-keyboard-response,6,2.1.0,28524,5657.0,/001.jpg, ,,/001.jpg,image,"[""webgazer""]","[""1.2.0""]","{""#jspsych-image-keyboard-response-stimulus"":{""x"":602.5,""y"":-12,""width"":700,""height"":933,""top"":-12,""right"":1302.5,""bottom"":921,""left"":602.5}}",1016,307,2014
,,,,,image-keyboard-response,6,2.1.0,28524,5657.0,/001.jpg, ,,/001.jpg,image,"[""webgazer""]","[""1.2.0""]","{""#jspsych-image-keyboard-response-stimulus"":{""x"":602.5,""y"":-12,""width"":700,""height"":933,""top"":-12,""right"":1302.5,""bottom"":921,""left"":602.5}}",994,468,2048
,,,,,image-keyboard-response,6,2.1.0,28524,5657.0,/001.jpg, ,,/001.jpg,image,"[""webgazer""]","[""1.2.0""]","{""#jspsych-image-keyboard-response-stimulus"":{""x"":602.5,""y"":-12,""width"":700,""height"":933,""top"":-12,""right"":1302.5,""bottom"":921,""left"":602.5}}",1011,600,2081
,,,,,image-keyboard-response,6,2.1.0,28524,5657.0,/001.jpg, ,,/001.jpg,image,"[""webgazer""]","[""1.2.0""]","{""#jspsych-image-keyboard-response-stimulus"":{""x"":602.5,""y"":-12,""width"":700,""height"":933,""top"":-12,""right"":1302.5,""bottom"":921,""left"":602.5}}",998,698,2115
,,,,,image-keyboard-response,6,2.1.0,28524,5657.0,/001.jpg, ,,/001.jpg,image,"[""webgazer""]","[""1.2.0""]","{""#jspsych-image-keyboard-response-stimulus"":{""x"":602.5,""y"":-12,""width"":700,""height"":933,""top"":-12,""right"":1302.5,""bottom"":921,""left"":602.5}}",1005,753,2150
,,,,,image-keyboard-response,6,2.1.0,28524,5657.0,/001.jpg, ,,/001.jpg,image,"[""webgazer""]","[""1.2.0""]","{""#jspsych-image-keyboard-response-stimulus"":{""x"":602.5,""y"":-12,""width"":700,""height"":933,""top"":-12,""right"":1302.5,""bottom"":921,""left"":602.5}}",993,696,2184
,,,,,image-keyboard-response,6,2.1.0,28524,5657.0,/001.jpg, ,,/001.jpg,image,"[""webgazer""]","[""1.2.0""]","{""#jspsych-image-keyboard-response-stimulus"":{""x"":602.5,""y"":-12,""width"":700,""height"":933,""top"":-12,""right"":1302.5,""bottom"":921,""left"":602.5}}",1015,611,2217
,,,,,image-keyboard-response,6,2.1.0,28524,5657.0,/001.jpg, ,,/001.jpg,image,"[""webgazer""]","[""1.2.0""]","{""#jspsych-image-keyboard-response-stimulus"":{""x"":602.5,""y"":-12,""width"":700,""height"":933,""top"":-12,""right"":1302.5,""bottom"":921,""left"":602.5}}",1020,539,2252
,,,,,image-keyboard-response,6,2.1.0,28524,5657.0,/001.jpg, ,,/001.jpg,image,"[""webgazer""]","[""1.2.0""]","{""#jspsych-image-keyboard-response-stimulus"":{""x"":602.5,""y"":-12,""width"":700,""height"":933,""top"":-12,""right"":1302.5,""bottom"":921,""left"":602.5}}",1041,471,2286
,,,,,image-keyboard-response,6,2.1.0,28524,5657.0,/001.jpg, ,,/001.jpg,image,"[""webgazer""]","[""1.2.0""]","{""#jspsych-image-keyboard-response-stimulus"":{""x"":602.5,""y"":-12,""width"":700,""height"":933,""top"":-12,""right"":1302.5,""bottom"":921,""left"":602.5}}",1032,404,2320
,,,,,image-keyboard-response,6,2.1.0,28524,5657.0,/001.jpg, ,,/001.jpg,image,"[""webgazer""]","[""1.2.0""]","{""#jspsych-image-keyboard-response-stimulus"":{""x"":602.5,""y"":-12,""width"":700,""height"":933,""top"":-12,""right"":1302.5,""bottom"":921,""left"":602.5}}",1030,326,2354
,,,,,image-keyboard-response,6,2.1.0,28524,5657.0,/001.jpg, ,,/001.jpg,image,"[""webgazer""]","[""1.2.0""]","{""#jspsych-image-keyboard-response-stimulus"":{""x"":602.5,""y"":-12,""width"":700,""height"":933,""top"":-12,""right"":1302.5,""bottom"":921,""left"":602.5}}",1024,282,2388
,,,,,image-keyboard-response,6,2.1.0,28524,5657.0,/001.jpg, ,,/001.jpg,image,"[""webgazer""]","[""1.2.0""]","{""#jspsych-image-keyboard-response-stimulus"":{""x"":602.5,""y"":-12,""width"":700,""height"":933,""top"":-12,""right"":1302.5,""bottom"":921,""left"":602.5}}",964,256,2422
,,,,,image-keyboard-response,6,2.1.0,28524,5657.0,/001.jpg, ,,/001.jpg,image,"[""webgazer""]","[""1.2.0""]","{""#jspsych-image-keyboard-response-stimulus"":{""x"":602.5,""y"":-12,""width"":700,""height"":933,""top"":-12,""right"":1302.5,""bottom"":921,""left"":602.5}}",897,247,2457
,,,,,image-keyboard-response,6,2.1.0,28524,5657.0,/001.jpg, ,,/001.jpg,image,"[""webgazer""]","[""1.2.0""]","{""#jspsych-image-keyboard-response-stimulus"":{""x"":602.5,""y"":-12,""width"":700,""height"":933,""top"":-12,""right"":1302.5,""bottom"":921,""left"":602.5}}",888,242,2489
,,,,,image-keyboard-response,6,2.1.0,28524,5657.0,/001.jpg, ,,/001.jpg,image,"[""webgazer""]","[""1.2.0""]","{""#jspsych-image-keyboard-response-stimulus"":{""x"":602.5,""y"":-12,""width"":700,""height"":933,""top"":-12,""right"":1302.5,""bottom"":921,""left"":602.5}}",825,236,2524
,,,,,image-keyboard-response,6,2.1.0,28524,5657.0,/001.jpg, ,,/001.jpg,image,"[""webgazer""]","[""1.2.0""]","{""#jspsych-image-keyboard-response-stimulus"":{""x"":602.5,""y"":-12,""width"":700,""height"":933,""top"":-12,""right"":1302.5,""bottom"":921,""left"":602.5}}",792,229,2558
,,,,,image-keyboard-response,6,2.1.0,28524,5657.0,/001.jpg, ,,/001.jpg,image,"[""webgazer""]","[""1.2.0""]","{""#jspsych-image-keyboard-response-stimulus"":{""x"":602.5,""y"":-12,""width"":700,""height"":933,""top"":-12,""right"":1302.5,""bottom"":921,""left"":602.5}}",750,246,2592
,,,,,image-keyboard-response,6,2.1.0,28524,5657.0,/001.jpg, ,,/001.jpg,image,"[""webgazer""]","[""1.2.0""]","{""#jspsych-image-keyboard-response-stimulus"":{""x"":602.5,""y"":-12,""width"":700,""height"":933,""top"":-12,""right"":1302.5,""bottom"":921,""left"":602.5}}",754,262,2625
,,,,,image-keyboard-response,6,2.1.0,28524,5657.0,/001.jpg, ,,/001.jpg,image,"[""webgazer""]","[""1.2.0""]","{""#jspsych-image-keyboard-response-stimulus"":{""x"":602.5,""y"":-12,""width"":700,""height"":933,""top"":-12,""right"":1302.5,""bottom"":921,""left"":602.5}}",755,267,2660
,,,,,image-keyboard-response,6,2.1.0,28524,5657.0,/001.jpg, ,,/001.jpg,image,"[""webgazer""]","[""1.2.0""]","{""#jspsych-image-keyboard-response-stimulus"":{""x"":602.5,""y"":-12,""width"":700,""height"":933,""top"":-12,""right"":1302.5,""bottom"":921,""left"":602.5}}",754,369,2694
,,,,,image-keyboard-response,6,2.1.0,28524,5657.0,/001.jpg, ,,/001.jpg,image,"[""webgazer""]","[""1.2.0""]","{""#jspsych-image-keyboard-response-stimulus"":{""x"":602.5,""y"":-12,""width"":700,""height"":933,""top"":-12,""right"":1302.5,""bottom"":921,""left"":602.5}}",823,546,2785
,,,,,image-keyboard-response,6,2.1.0,28524,5657.0,/001.jpg, ,,/001.jpg,image,"[""webgazer""]","[""1.2.0""]","{""#jspsych-image-keyboard-response-stimulus"":{""x"":602.5,""y"":-12,""width"":700,""height"":933,""top"":-12,""right"":1302.5,""bottom"":921,""left"":602.5}}",903,718,2801
,,,,,image-keyboard-response,6,2.1.0,28524,5657.0,/001.jpg, ,,/001.jpg,image,"[""webgazer""]","[""1.2.0""]","{""#jspsych-image-keyboard-response-stimulus"":{""x"":602.5,""y"":-12,""width"":700,""height"":933,""top"":-12,""right"":1302.5,""bottom"":921,""left"":602.5}}",924,825,2831
,,,,,image-keyboard-response,6,2.1.0,28524,5657.0,/001.jpg, ,,/001.jpg,image,"[""webgazer""]","[""1.2.0""]","{""#jspsych-image-keyboard-response-stimulus"":{""x"":602.5,""y"":-12,""width"":700,""height"":933,""top"":-12,""right"":1302.5,""bottom"":921,""left"":602.5}}",901,869,2864
,,,,,image-keyboard-response,6,2.1.0,28524,5657.0,/001.jpg, ,,/001.jpg,image,"[""webgazer""]","[""1.2.0""]","{""#jspsych-image-keyboard-response-stimulus"":{""x"":602.5,""y"":-12,""width"":700,""height"":933,""top"":-12,""right"":1302.5,""bottom"":921,""left"":602.5}}",856,884,2898
,,,,,image-keyboard-response,6,2.1.0,28524,5657.0,/001.jpg, ,,/001.jpg,image,"[""webgazer""]","[""1.2.0""]","{""#jspsych-image-keyboard-response-stimulus"":{""x"":602.5,""y"":-12,""width"":700,""height"":933,""top"":-12,""right"":1302.5,""bottom"":921,""left"":602.5}}",819,852,2933
,,,,,image-keyboard-response,6,2.1.0,28524,5657.0,/001.jpg, ,,/001.jpg,image,"[""webgazer""]","[""1.2.0""]","{""#jspsych-image-keyboard-response-stimulus"":{""x"":602.5,""y"":-12,""width"":700,""height"":933,""top"":-12,""right"":1302.5,""bottom"":921,""left"":602.5}}",800,835,2966
,,,,,image-keyboard-response,6,2.1.0,28524,5657.0,/001.jpg, ,,/001.jpg,image,"[""webgazer""]","[""1.2.0""]","{""#jspsych-image-keyboard-response-stimulus"":{""x"":602.5,""y"":-12,""width"":700,""height"":933,""top"":-12,""right"":1302.5,""bottom"":921,""left"":602.5}}",766,826,3000
,,,,,image-keyboard-response,6,2.1.0,28524,5657.0,/001.jpg, ,,/001.jpg,image,"[""webgazer""]","[""1.2.0""]","{""#jspsych-image-keyboard-response-stimulus"":{""x"":602.5,""y"":-12,""width"":700,""height"":933,""top"":-12,""right"":1302.5,""bottom"":921,""left"":602.5}}",723,772,3033
,,,,,image-keyboard-response,6,2.1.0,28524,5657.0,/001.jpg, ,,/001.jpg,image,"[""webgazer""]","[""1.2.0""]","{""#jspsych-image-keyboard-response-stimulus"":{""x"":602.5,""y"":-12,""width"":700,""height"":933,""top"":-12,""right"":1302.5,""bottom"":921,""left"":602.5}}",673,739,3068
,,,,,image-keyboard-response,6,2.1.0,28524,5657.0,/001.jpg, ,,/001.jpg,image,"[""webgazer""]","[""1.2.0""]","{""#jspsych-image-keyboard-response-stimulus"":{""x"":602.5,""y"":-12,""width"":700,""height"":933,""top"":-12,""right"":1302.5,""bottom"":921,""left"":602.5}}",643,720,3102
,,,,,image-keyboard-response,6,2.1.0,28524,5657.0,/001.jpg, ,,/001.jpg,image,"[""webgazer""]","[""1.2.0""]","{""#jspsych-image-keyboard-response-stimulus"":{""x"":602.5,""y"":-12,""width"":700,""height"":933,""top"":-12,""right"":1302.5,""bottom"":921,""left"":602.5}}",616,718,3137
,,,,,image-keyboard-response,6,2.1.0,28524,5657.0,/001.jpg, ,,/001.jpg,image,"[""webgazer""]","[""1.2.0""]","{""#jspsych-image-keyboard-response-stimulus"":{""x"":602.5,""y"":-12,""width"":700,""height"":933,""top"":-12,""right"":1302.5,""bottom"":921,""left"":602.5}}",683,800,3170
,,,,,image-keyboard-response,6,2.1.0,28524,5657.0,/001.jpg, ,,/001.jpg,image,"[""webgazer""]","[""1.2.0""]","{""#jspsych-image-keyboard-response-stimulus"":{""x"":602.5,""y"":-12,""width"":700,""height"":933,""top"":-12,""right"":1302.5,""bottom"":921,""left"":602.5}}",815,848,3204
,,,,,image-keyboard-response,6,2.1.0,28524,5657.0,/001.jpg, ,,/001.jpg,image,"[""webgazer""]","[""1.2.0""]","{""#jspsych-image-keyboard-response-stimulus"":{""x"":602.5,""y"":-12,""width"":700,""height"":933,""top"":-12,""right"":1302.5,""bottom"":921,""left"":602.5}}",914,888,3238
,,,,,image-keyboard-response,6,2.1.0,28524,5657.0,/001.jpg, ,,/001.jpg,image,"[""webgazer""]","[""1.2.0""]","{""#jspsych-image-keyboard-response-stimulus"":{""x"":602.5,""y"":-12,""width"":700,""height"":933,""top"":-12,""right"":1302.5,""bottom"":921,""left"":602.5}}",950,931,3272
,,,,,image-keyboard-response,6,2.1.0,28524,5657.0,/001.jpg, ,,/001.jpg,image,"[""webgazer""]","[""1.2.0""]","{""#jspsych-image-keyboard-response-stimulus"":{""x"":602.5,""y"":-12,""width"":700,""height"":933,""top"":-12,""right"":1302.5,""bottom"":921,""left"":602.5}}",948,887,3308
,,,,,image-keyboard-response,6,2.1.0,28524,5657.0,/001.jpg, ,,/001.jpg,image,"[""webgazer""]","[""1.2.0""]","{""#jspsych-image-keyboard-response-stimulus"":{""x"":602.5,""y"":-12,""width"":700,""height"":933,""top"":-12,""right"":1302.5,""bottom"":921,""left"":602.5}}",970,877,3341
,,,,,image-keyboard-response,6,2.1.0,28524,5657.0,/001.jpg, ,,/001.jpg,image,"[""webgazer""]","[""1.2.0""]","{""#jspsych-image-keyboard-response-stimulus"":{""x"":602.5,""y"":-12,""width"":700,""height"":933,""top"":-12,""right"":1302.5,""bottom"":921,""left"":602.5}}",964,850,3373
,,,,,image-keyboard-response,6,2.1.0,28524,5657.0,/001.jpg, ,,/001.jpg,image,"[""webgazer""]","[""1.2.0""]","{""#jspsych-image-keyboard-response-stimulus"":{""x"":602.5,""y"":-12,""width"":700,""height"":933,""top"":-12,""right"":1302.5,""bottom"":921,""left"":602.5}}",956,826,3407
,,,,,image-keyboard-response,6,2.1.0,28524,5657.0,/001.jpg, ,,/001.jpg,image,"[""webgazer""]","[""1.2.0""]","{""#jspsych-image-keyboard-response-stimulus"":{""x"":602.5,""y"":-12,""width"":700,""height"":933,""top"":-12,""right"":1302.5,""bottom"":921,""left"":602.5}}",946,805,3442
,,,,,image-keyboard-response,6,2.1.0,28524,5657.0,/001.jpg, ,,/001.jpg,image,"[""webgazer""]","[""1.2.0""]","{""#jspsych-image-keyboard-response-stimulus"":{""x"":602.5,""y"":-12,""width"":700,""height"":933,""top"":-12,""right"":1302.5,""bottom"":921,""left"":602.5}}",950,790,3476
,,,,,image-keyboard-response,6,2.1.0,28524,5657.0,/001.jpg, ,,/001.jpg,image,"[""webgazer""]","[""1.2.0""]","{""#jspsych-image-keyboard-response-stimulus"":{""x"":602.5,""y"":-12,""width"":700,""height"":933,""top"":-12,""right"":1302.5,""bottom"":921,""left"":602.5}}",946,787,3510
,,,,,image-keyboard-response,6,2.1.0,28524,5657.0,/001.jpg, ,,/001.jpg,image,"[""webgazer""]","[""1.2.0""]","{""#jspsych-image-keyboard-response-stimulus"":{""x"":602.5,""y"":-12,""width"":700,""height"":933,""top"":-12,""right"":1302.5,""bottom"":921,""left"":602.5}}",940,779,3544
,,,,,image-keyboard-response,6,2.1.0,28524,5657.0,/001.jpg, ,,/001.jpg,image,"[""webgazer""]","[""1.2.0""]","{""#jspsych-image-keyboard-response-stimulus"":{""x"":602.5,""y"":-12,""width"":700,""height"":933,""top"":-12,""right"":1302.5,""bottom"":921,""left"":602.5}}",989,767,3577
,,,,,image-keyboard-response,6,2.1.0,28524,5657.0,/001.jpg, ,,/001.jpg,image,"[""webgazer""]","[""1.2.0""]","{""#jspsych-image-keyboard-response-stimulus"":{""x"":602.5,""y"":-12,""width"":700,""height"":933,""top"":-12,""right"":1302.5,""bottom"":921,""left"":602.5}}",1038,714,3612
,,,,,image-keyboard-response,6,2.1.0,28524,5657.0,/001.jpg, ,,/001.jpg,image,"[""webgazer""]","[""1.2.0""]","{""#jspsych-image-keyboard-response-stimulus"":{""x"":602.5,""y"":-12,""width"":700,""height"":933,""top"":-12,""right"":1302.5,""bottom"":921,""left"":602.5}}",1038,722,3645
,,,,,image-keyboard-response,6,2.1.0,28524,5657.0,/001.jpg, ,,/001.jpg,image,"[""webgazer""]","[""1.2.0""]","{""#jspsych-image-keyboard-response-stimulus"":{""x"":602.5,""y"":-12,""width"":700,""height"":933,""top"":-12,""right"":1302.5,""bottom"":921,""left"":602.5}}",1094,767,3680
,,,,,image-keyboard-response,6,2.1.0,28524,5657.0,/001.jpg, ,,/001.jpg,image,"[""webgazer""]","[""1.2.0""]","{""#jspsych-image-keyboard-response-stimulus"":{""x"":602.5,""y"":-12,""width"":700,""height"":933,""top"":-12,""right"":1302.5,""bottom"":921,""left"":602.5}}",1099,778,3714
,,,,,image-keyboard-response,6,2.1.0,28524,5657.0,/001.jpg, ,,/001.jpg,image,"[""webgazer""]","[""1.2.0""]","{""#jspsych-image-keyboard-response-stimulus"":{""x"":602.5,""y"":-12,""width"":700,""height"":933,""top"":-12,""right"":1302.5,""bottom"":921,""left"":602.5}}",1138,798,3748
,,,,,image-keyboard-response,6,2.1.0,28524,5657.0,/001.jpg, ,,/001.jpg,image,"[""webgazer""]","[""1.2.0""]","{""#jspsych-image-keyboard-response-stimulus"":{""x"":602.5,""y"":-12,""width"":700,""height"":933,""top"":-12,""right"":1302.5,""bottom"":921,""left"":602.5}}",1125,812,3781
,,,,,image-keyboard-response,6,2.1.0,28524,5657.0,/001.jpg, ,,/001.jpg,image,"[""webgazer""]","[""1.2.0""]","{""#jspsych-image-keyboard-response-stimulus"":{""x"":602.5,""y"":-12,""width"":700,""height"":933,""top"":-12,""right"":1302.5,""bottom"":921,""left"":602.5}}",1119,864,3816
,,,,,image-keyboard-response,6,2.1.0,28524,5657.0,/001.jpg, ,,/001.jpg,image,"[""webgazer""]","[""1.2.0""]","{""#jspsych-image-keyboard-response-stimulus"":{""x"":602.5,""y"":-12,""width"":700,""height"":933,""top"":-12,""right"":1302.5,""bottom"":921,""left"":602.5}}",1115,885,3850
,,,,,image-keyboard-response,6,2.1.0,28524,5657.0,/001.jpg, ,,/001.jpg,image,"[""webgazer""]","[""1.2.0""]","{""#jspsych-image-keyboard-response-stimulus"":{""x"":602.5,""y"":-12,""width"":700,""height"":933,""top"":-12,""right"":1302.5,""bottom"":921,""left"":602.5}}",1088,862,3884
,,,,,image-keyboard-response,6,2.1.0,28524,5657.0,/001.jpg, ,,/001.jpg,image,"[""webgazer""]","[""1.2.0""]","{""#jspsych-image-keyboard-response-stimulus"":{""x"":602.5,""y"":-12,""width"":700,""height"":933,""top"":-12,""right"":1302.5,""bottom"":921,""left"":602.5}}",1040,849,3918
,,,,,image-keyboard-response,6,2.1.0,28524,5657.0,/001.jpg, ,,/001.jpg,image,"[""webgazer""]","[""1.2.0""]","{""#jspsych-image-keyboard-response-stimulus"":{""x"":602.5,""y"":-12,""width"":700,""height"":933,""top"":-12,""right"":1302.5,""bottom"":921,""left"":602.5}}",1035,819,3952
,,,,,image-keyboard-response,6,2.1.0,28524,5657.0,/001.jpg, ,,/001.jpg,image,"[""webgazer""]","[""1.2.0""]","{""#jspsych-image-keyboard-response-stimulus"":{""x"":602.5,""y"":-12,""width"":700,""height"":933,""top"":-12,""right"":1302.5,""bottom"":921,""left"":602.5}}",1007,811,3986
,,,,,image-keyboard-response,6,2.1.0,28524,5657.0,/001.jpg, ,,/001.jpg,image,"[""webgazer""]","[""1.2.0""]","{""#jspsych-image-keyboard-response-stimulus"":{""x"":602.5,""y"":-12,""width"":700,""height"":933,""top"":-12,""right"":1302.5,""bottom"":921,""left"":602.5}}",1022,796,4020
,,,,,image-keyboard-response,6,2.1.0,28524,5657.0,/001.jpg, ,,/001.jpg,image,"[""webgazer""]","[""1.2.0""]","{""#jspsych-image-keyboard-response-stimulus"":{""x"":602.5,""y"":-12,""width"":700,""height"":933,""top"":-12,""right"":1302.5,""bottom"":921,""left"":602.5}}",1022,788,4053
,,,,,image-keyboard-response,6,2.1.0,28524,5657.0,/001.jpg, ,,/001.jpg,image,"[""webgazer""]","[""1.2.0""]","{""#jspsych-image-keyboard-response-stimulus"":{""x"":602.5,""y"":-12,""width"":700,""height"":933,""top"":-12,""right"":1302.5,""bottom"":921,""left"":602.5}}",1027,759,4087
,,,,,image-keyboard-response,6,2.1.0,28524,5657.0,/001.jpg, ,,/001.jpg,image,"[""webgazer""]","[""1.2.0""]","{""#jspsych-image-keyboard-response-stimulus"":{""x"":602.5,""y"":-12,""width"":700,""height"":933,""top"":-12,""right"":1302.5,""bottom"":921,""left"":602.5}}",1023,723,4121
,,,,,image-keyboard-response,6,2.1.0,28524,5657.0,/001.jpg, ,,/001.jpg,image,"[""webgazer""]","[""1.2.0""]","{""#jspsych-image-keyboard-response-stimulus"":{""x"":602.5,""y"":-12,""width"":700,""height"":933,""top"":-12,""right"":1302.5,""bottom"":921,""left"":602.5}}",1025,690,4155
,,,,,image-keyboard-response,6,2.1.0,28524,5657.0,/001.jpg, ,,/001.jpg,image,"[""webgazer""]","[""1.2.0""]","{""#jspsych-image-keyboard-response-stimulus"":{""x"":602.5,""y"":-12,""width"":700,""height"":933,""top"":-12,""right"":1302.5,""bottom"":921,""left"":602.5}}",1037,658,4190
,,,,,image-keyboard-response,6,2.1.0,28524,5657.0,/001.jpg, ,,/001.jpg,image,"[""webgazer""]","[""1.2.0""]","{""#jspsych-image-keyboard-response-stimulus"":{""x"":602.5,""y"":-12,""width"":700,""height"":933,""top"":-12,""right"":1302.5,""bottom"":921,""left"":602.5}}",1014,628,4223
,,,,,image-keyboard-response,6,2.1.0,28524,5657.0,/001.jpg, ,,/001.jpg,image,"[""webgazer""]","[""1.2.0""]","{""#jspsych-image-keyboard-response-stimulus"":{""x"":602.5,""y"":-12,""width"":700,""height"":933,""top"":-12,""right"":1302.5,""bottom"":921,""left"":602.5}}",994,603,4258
,,,,,image-keyboard-response,6,2.1.0,28524,5657.0,/001.jpg, ,,/001.jpg,image,"[""webgazer""]","[""1.2.0""]","{""#jspsych-image-keyboard-response-stimulus"":{""x"":602.5,""y"":-12,""width"":700,""height"":933,""top"":-12,""right"":1302.5,""bottom"":921,""left"":602.5}}",993,603,4292
,,,,,image-keyboard-response,6,2.1.0,28524,5657.0,/001.jpg, ,,/001.jpg,image,"[""webgazer""]","[""1.2.0""]","{""#jspsych-image-keyboard-response-stimulus"":{""x"":602.5,""y"":-12,""width"":700,""height"":933,""top"":-12,""right"":1302.5,""bottom"":921,""left"":602.5}}",979,616,4326
,,,,,image-keyboard-response,6,2.1.0,28524,5657.0,/001.jpg, ,,/001.jpg,image,"[""webgazer""]","[""1.2.0""]","{""#jspsych-image-keyboard-response-stimulus"":{""x"":602.5,""y"":-12,""width"":700,""height"":933,""top"":-12,""right"":1302.5,""bottom"":921,""left"":602.5}}",1025,657,4360
,,,,,image-keyboard-response,6,2.1.0,28524,5657.0,/001.jpg, ,,/001.jpg,image,"[""webgazer""]","[""1.2.0""]","{""#jspsych-image-keyboard-response-stimulus"":{""x"":602.5,""y"":-12,""width"":700,""height"":933,""top"":-12,""right"":1302.5,""bottom"":921,""left"":602.5}}",1009,723,4393
,,,,,image-keyboard-response,6,2.1.0,28524,5657.0,/001.jpg, ,,/001.jpg,image,"[""webgazer""]","[""1.2.0""]","{""#jspsych-image-keyboard-response-stimulus"":{""x"":602.5,""y"":-12,""width"":700,""height"":933,""top"":-12,""right"":1302.5,""bottom"":921,""left"":602.5}}",1038,756,4428
,,,,,image-keyboard-response,6,2.1.0,28524,5657.0,/001.jpg, ,,/001.jpg,image,"[""webgazer""]","[""1.2.0""]","{""#jspsych-image-keyboard-response-stimulus"":{""x"":602.5,""y"":-12,""width"":700,""height"":933,""top"":-12,""right"":1302.5,""bottom"":921,""left"":602.5}}",987,726,4462
,,,,,image-keyboard-response,6,2.1.0,28524,5657.0,/001.jpg, ,,/001.jpg,image,"[""webgazer""]","[""1.2.0""]","{""#jspsych-image-keyboard-response-stimulus"":{""x"":602.5,""y"":-12,""width"":700,""height"":933,""top"":-12,""right"":1302.5,""bottom"":921,""left"":602.5}}",984,654,4496
,,,,,image-keyboard-response,6,2.1.0,28524,5657.0,/001.jpg, ,,/001.jpg,image,"[""webgazer""]","[""1.2.0""]","{""#jspsych-image-keyboard-response-stimulus"":{""x"":602.5,""y"":-12,""width"":700,""height"":933,""top"":-12,""right"":1302.5,""bottom"":921,""left"":602.5}}",994,580,4530
,,,,,image-keyboard-response,6,2.1.0,28524,5657.0,/001.jpg, ,,/001.jpg,image,"[""webgazer""]","[""1.2.0""]","{""#jspsych-image-keyboard-response-stimulus"":{""x"":602.5,""y"":-12,""width"":700,""height"":933,""top"":-12,""right"":1302.5,""bottom"":921,""left"":602.5}}",962,458,4564
,,,,,image-keyboard-response,6,2.1.0,28524,5657.0,/001.jpg, ,,/001.jpg,image,"[""webgazer""]","[""1.2.0""]","{""#jspsych-image-keyboard-response-stimulus"":{""x"":602.5,""y"":-12,""width"":700,""height"":933,""top"":-12,""right"":1302.5,""bottom"":921,""left"":602.5}}",959,361,4597
,,,,,image-keyboard-response,6,2.1.0,28524,5657.0,/001.jpg, ,,/001.jpg,image,"[""webgazer""]","[""1.2.0""]","{""#jspsych-image-keyboard-response-stimulus"":{""x"":602.5,""y"":-12,""width"":700,""height"":933,""top"":-12,""right"":1302.5,""bottom"":921,""left"":602.5}}",973,275,4633
,,,,,image-keyboard-response,6,2.1.0,28524,5657.0,/001.jpg, ,,/001.jpg,image,"[""webgazer""]","[""1.2.0""]","{""#jspsych-image-keyboard-response-stimulus"":{""x"":602.5,""y"":-12,""width"":700,""height"":933,""top"":-12,""right"":1302.5,""bottom"":921,""left"":602.5}}",993,207,4667
,,,,,image-keyboard-response,6,2.1.0,28524,5657.0,/001.jpg, ,,/001.jpg,image,"[""webgazer""]","[""1.2.0""]","{""#jspsych-image-keyboard-response-stimulus"":{""x"":602.5,""y"":-12,""width"":700,""height"":933,""top"":-12,""right"":1302.5,""bottom"":921,""left"":602.5}}",997,154,4700
,,,,,image-keyboard-response,6,2.1.0,28524,5657.0,/001.jpg, ,,/001.jpg,image,"[""webgazer""]","[""1.2.0""]","{""#jspsych-image-keyboard-response-stimulus"":{""x"":602.5,""y"":-12,""width"":700,""height"":933,""top"":-12,""right"":1302.5,""bottom"":921,""left"":602.5}}",983,99,4735
,,,,,image-keyboard-response,6,2.1.0,28524,5657.0,/001.jpg, ,,/001.jpg,image,"[""webgazer""]","[""1.2.0""]","{""#jspsych-image-keyboard-response-stimulus"":{""x"":602.5,""y"":-12,""width"":700,""height"":933,""top"":-12,""right"":1302.5,""bottom"":921,""left"":602.5}}",936,84,4768
,,,,,image-keyboard-response,6,2.1.0,28524,5657.0,/001.jpg, ,,/001.jpg,image,"[""webgazer""]","[""1.2.0""]","{""#jspsych-image-keyboard-response-stimulus"":{""x"":602.5,""y"":-12,""width"":700,""height"":933,""top"":-12,""right"":1302.5,""bottom"":921,""left"":602.5}}",856,160,4802
,,,,,image-keyboard-response,6,2.1.0,28524,5657.0,/001.jpg, ,,/001.jpg,image,"[""webgazer""]","[""1.2.0""]","{""#jspsych-image-keyboard-response-stimulus"":{""x"":602.5,""y"":-12,""width"":700,""height"":933,""top"":-12,""right"":1302.5,""bottom"":921,""left"":602.5}}",822,356,4836
,,,,,image-keyboard-response,6,2.1.0,28524,5657.0,/001.jpg, ,,/001.jpg,image,"[""webgazer""]","[""1.2.0""]","{""#jspsych-image-keyboard-response-stimulus"":{""x"":602.5,""y"":-12,""width"":700,""height"":933,""top"":-12,""right"":1302.5,""bottom"":921,""left"":602.5}}",851,509,4870
,,,,,image-keyboard-response,6,2.1.0,28524,5657.0,/001.jpg, ,,/001.jpg,image,"[""webgazer""]","[""1.2.0""]","{""#jspsych-image-keyboard-response-stimulus"":{""x"":602.5,""y"":-12,""width"":700,""height"":933,""top"":-12,""right"":1302.5,""bottom"":921,""left"":602.5}}",895,681,4905
,,,,,image-keyboard-response,6,2.1.0,28524,5657.0,/001.jpg, ,,/001.jpg,image,"[""webgazer""]","[""1.2.0""]","{""#jspsych-image-keyboard-response-stimulus"":{""x"":602.5,""y"":-12,""width"":700,""height"":933,""top"":-12,""right"":1302.5,""bottom"":921,""left"":602.5}}",976,799,4938
,,,,,image-keyboard-response,6,2.1.0,28524,5657.0,/001.jpg, ,,/001.jpg,image,"[""webgazer""]","[""1.2.0""]","{""#jspsych-image-keyboard-response-stimulus"":{""x"":602.5,""y"":-12,""width"":700,""height"":933,""top"":-12,""right"":1302.5,""bottom"":921,""left"":602.5}}",1037,916,4972
,,,,,image-keyboard-response,6,2.1.0,28524,5657.0,/001.jpg, ,,/001.jpg,image,"[""webgazer""]","[""1.2.0""]","{""#jspsych-image-keyboard-response-stimulus"":{""x"":602.5,""y"":-12,""width"":700,""height"":933,""top"":-12,""right"":1302.5,""bottom"":921,""left"":602.5}}",1041,1012,5006
,,,,,image-keyboard-response,6,2.1.0,28524,5657.0,/001.jpg, ,,/001.jpg,image,"[""webgazer""]","[""1.2.0""]","{""#jspsych-image-keyboard-response-stimulus"":{""x"":602.5,""y"":-12,""width"":700,""height"":933,""top"":-12,""right"":1302.5,""bottom"":921,""left"":602.5}}",995,1046,5041
,,,,,image-keyboard-response,6,2.1.0,28524,5657.0,/001.jpg, ,,/001.jpg,image,"[""webgazer""]","[""1.2.0""]","{""#jspsych-image-keyboard-response-stimulus"":{""x"":602.5,""y"":-12,""width"":700,""height"":933,""top"":-12,""right"":1302.5,""bottom"":921,""left"":602.5}}",945,1016,5074
,,,,,image-keyboard-response,6,2.1.0,28524,5657.0,/001.jpg, ,,/001.jpg,image,"[""webgazer""]","[""1.2.0""]","{""#jspsych-image-keyboard-response-stimulus"":{""x"":602.5,""y"":-12,""width"":700,""height"":933,""top"":-12,""right"":1302.5,""bottom"":921,""left"":602.5}}",892,961,5107
,,,,,image-keyboard-response,6,2.1.0,28524,5657.0,/001.jpg, ,,/001.jpg,image,"[""webgazer""]","[""1.2.0""]","{""#jspsych-image-keyboard-response-stimulus"":{""x"":602.5,""y"":-12,""width"":700,""height"":933,""top"":-12,""right"":1302.5,""bottom"":921,""left"":602.5}}",826,897,5142
,,,,,image-keyboard-response,6,2.1.0,28524,5657.0,/001.jpg, ,,/001.jpg,image,"[""webgazer""]","[""1.2.0""]","{""#jspsych-image-keyboard-response-stimulus"":{""x"":602.5,""y"":-12,""width"":700,""height"":933,""top"":-12,""right"":1302.5,""bottom"":921,""left"":602.5}}",748,848,5176
,,,,,image-keyboard-response,6,2.1.0,28524,5657.0,/001.jpg, ,,/001.jpg,image,"[""webgazer""]","[""1.2.0""]","{""#jspsych-image-keyboard-response-stimulus"":{""x"":602.5,""y"":-12,""width"":700,""height"":933,""top"":-12,""right"":1302.5,""bottom"":921,""left"":602.5}}",674,801,5210
,,,,,image-keyboard-response,6,2.1.0,28524,5657.0,/001.jpg, ,,/001.jpg,image,"[""webgazer""]","[""1.2.0""]","{""#jspsych-image-keyboard-response-stimulus"":{""x"":602.5,""y"":-12,""width"":700,""height"":933,""top"":-12,""right"":1302.5,""bottom"":921,""left"":602.5}}",651,766,5244
,,,,,image-keyboard-response,6,2.1.0,28524,5657.0,/001.jpg, ,,/001.jpg,image,"[""webgazer""]","[""1.2.0""]","{""#jspsych-image-keyboard-response-stimulus"":{""x"":602.5,""y"":-12,""width"":700,""height"":933,""top"":-12,""right"":1302.5,""bottom"":921,""left"":602.5}}",676,751,5278
,,,,,image-keyboard-response,6,2.1.0,28524,5657.0,/001.jpg, ,,/001.jpg,image,"[""webgazer""]","[""1.2.0""]","{""#jspsych-image-keyboard-response-stimulus"":{""x"":602.5,""y"":-12,""width"":700,""height"":933,""top"":-12,""right"":1302.5,""bottom"":921,""left"":602.5}}",738,703,5311
,,,,,image-keyboard-response,6,2.1.0,28524,5657.0,/001.jpg, ,,/001.jpg,image,"[""webgazer""]","[""1.2.0""]","{""#jspsych-image-keyboard-response-stimulus"":{""x"":602.5,""y"":-12,""width"":700,""height"":933,""top"":-12,""right"":1302.5,""bottom"":921,""left"":602.5}}",780,667,5346
,,,,,image-keyboard-response,6,2.1.0,28524,5657.0,/001.jpg, ,,/001.jpg,image,"[""webgazer""]","[""1.2.0""]","{""#jspsych-image-keyboard-response-stimulus"":{""x"":602.5,""y"":-12,""width"":700,""height"":933,""top"":-12,""right"":1302.5,""bottom"":921,""left"":602.5}}",831,643,5380
,,,,,image-keyboard-response,6,2.1.0,28524,5657.0,/001.jpg, ,,/001.jpg,image,"[""webgazer""]","[""1.2.0""]","{""#jspsych-image-keyboard-response-stimulus"":{""x"":602.5,""y"":-12,""width"":700,""height"":933,""top"":-12,""right"":1302.5,""bottom"":921,""left"":602.5}}",878,613,5414
,,,,,image-keyboard-response,6,2.1.0,28524,5657.0,/001.jpg, ,,/001.jpg,image,"[""webgazer""]","[""1.2.0""]","{""#jspsych-image-keyboard-response-stimulus"":{""x"":602.5,""y"":-12,""width"":700,""height"":933,""top"":-12,""right"":1302.5,""bottom"":921,""left"":602.5}}",915,601,5448
,,,,,image-keyboard-response,6,2.1.0,28524,5657.0,/001.jpg, ,,/001.jpg,image,"[""webgazer""]","[""1.2.0""]","{""#jspsych-image-keyboard-response-stimulus"":{""x"":602.5,""y"":-12,""width"":700,""height"":933,""top"":-12,""right"":1302.5,""bottom"":921,""left"":602.5}}",938,631,5482
,,,,,image-keyboard-response,6,2.1.0,28524,5657.0,/001.jpg, ,,/001.jpg,image,"[""webgazer""]","[""1.2.0""]","{""#jspsych-image-keyboard-response-stimulus"":{""x"":602.5,""y"":-12,""width"":700,""height"":933,""top"":-12,""right"":1302.5,""bottom"":921,""left"":602.5}}",976,654,5515
,,,,,image-keyboard-response,6,2.1.0,28524,5657.0,/001.jpg, ,,/001.jpg,image,"[""webgazer""]","[""1.2.0""]","{""#jspsych-image-keyboard-response-stimulus"":{""x"":602.5,""y"":-12,""width"":700,""height"":933,""top"":-12,""right"":1302.5,""bottom"":921,""left"":602.5}}",1011,585,5550
,,,,,image-keyboard-response,6,2.1.0,28524,5657.0,/001.jpg, ,,/001.jpg,image,"[""webgazer""]","[""1.2.0""]","{""#jspsych-image-keyboard-response-stimulus"":{""x"":602.5,""y"":-12,""width"":700,""height"":933,""top"":-12,""right"":1302.5,""bottom"":921,""left"":602.5}}",1039,528,5584
,,,,,image-keyboard-response,6,2.1.0,28524,5657.0,/001.jpg, ,,/001.jpg,image,"[""webgazer""]","[""1.2.0""]","{""#jspsych-image-keyboard-response-stimulus"":{""x"":602.5,""y"":-12,""width"":700,""height"":933,""top"":-12,""right"":1302.5,""bottom"":921,""left"":602.5}}",1035,420,5618
,,,,,image-keyboard-response,7,2.1.0,31366,2840.0,/002.jpg, ,,/002.jpg,image,"[""webgazer""]","[""1.2.0""]","{""#jspsych-image-keyboard-response-stimulus"":{""x"":602.5,""y"":-12,""width"":700,""height"":933,""top"":-12,""right"":1302.5,""bottom"":921,""left"":602.5}}",1022,333,-6
,,,,,image-keyboard-response,7,2.1.0,31366,2840.0,/002.jpg, ,,/002.jpg,image,"[""webgazer""]","[""1.2.0""]","{""#jspsych-image-keyboard-response-stimulus"":{""x"":602.5,""y"":-12,""width"":700,""height"":933,""top"":-12,""right"":1302.5,""bottom"":921,""left"":602.5}}",1010,264,6
,,,,,image-keyboard-response,7,2.1.0,31366,2840.0,/002.jpg, ,,/002.jpg,image,"[""webgazer""]","[""1.2.0""]","{""#jspsych-image-keyboard-response-stimulus"":{""x"":602.5,""y"":-12,""width"":700,""height"":933,""top"":-12,""right"":1302.5,""bottom"":921,""left"":602.5}}",992,194,92
,,,,,image-keyboard-response,7,2.1.0,31366,2840.0,/002.jpg, ,,/002.jpg,image,"[""webgazer""]","[""1.2.0""]","{""#jspsych-image-keyboard-response-stimulus"":{""x"":602.5,""y"":-12,""width"":700,""height"":933,""top"":-12,""right"":1302.5,""bottom"":921,""left"":602.5}}",960,126,117
,,,,,image-keyboard-response,7,2.1.0,31366,2840.0,/002.jpg, ,,/002.jpg,image,"[""webgazer""]","[""1.2.0""]","{""#jspsych-image-keyboard-response-stimulus"":{""x"":602.5,""y"":-12,""width"":700,""height"":933,""top"":-12,""right"":1302.5,""bottom"":921,""left"":602.5}}",934,75,144
,,,,,image-keyboard-response,7,2.1.0,31366,2840.0,/002.jpg, ,,/002.jpg,image,"[""webgazer""]","[""1.2.0""]","{""#jspsych-image-keyboard-response-stimulus"":{""x"":602.5,""y"":-12,""width"":700,""height"":933,""top"":-12,""right"":1302.5,""bottom"":921,""left"":602.5}}",914,34,179
,,,,,image-keyboard-response,7,2.1.0,31366,2840.0,/002.jpg, ,,/002.jpg,image,"[""webgazer""]","[""1.2.0""]","{""#jspsych-image-keyboard-response-stimulus"":{""x"":602.5,""y"":-12,""width"":700,""height"":933,""top"":-12,""right"":1302.5,""bottom"":921,""left"":602.5}}",894,5,213
,,,,,image-keyboard-response,7,2.1.0,31366,2840.0,/002.jpg, ,,/002.jpg,image,"[""webgazer""]","[""1.2.0""]","{""#jspsych-image-keyboard-response-stimulus"":{""x"":602.5,""y"":-12,""width"":700,""height"":933,""top"":-12,""right"":1302.5,""bottom"":921,""left"":602.5}}",895,-9,248
,,,,,image-keyboard-response,7,2.1.0,31366,2840.0,/002.jpg, ,,/002.jpg,image,"[""webgazer""]","[""1.2.0""]","{""#jspsych-image-keyboard-response-stimulus"":{""x"":602.5,""y"":-12,""width"":700,""height"":933,""top"":-12,""right"":1302.5,""bottom"":921,""left"":602.5}}",890,-1,281
,,,,,image-keyboard-response,7,2.1.0,31366,2840.0,/002.jpg, ,,/002.jpg,image,"[""webgazer""]","[""1.2.0""]","{""#jspsych-image-keyboard-response-stimulus"":{""x"":602.5,""y"":-12,""width"":700,""height"":933,""top"":-12,""right"":1302.5,""bottom"":921,""left"":602.5}}",887,13,314
,,,,,image-keyboard-response,7,2.1.0,31366,2840.0,/002.jpg, ,,/002.jpg,image,"[""webgazer""]","[""1.2.0""]","{""#jspsych-image-keyboard-response-stimulus"":{""x"":602.5,""y"":-12,""width"":700,""height"":933,""top"":-12,""right"":1302.5,""bottom"":921,""left"":602.5}}",879,12,349
,,,,,image-keyboard-response,7,2.1.0,31366,2840.0,/002.jpg, ,,/002.jpg,image,"[""webgazer""]","[""1.2.0""]","{""#jspsych-image-keyboard-response-stimulus"":{""x"":602.5,""y"":-12,""width"":700,""height"":933,""top"":-12,""right"":1302.5,""bottom"":921,""left"":602.5}}",879,13,382
,,,,,image-keyboard-response,7,2.1.0,31366,2840.0,/002.jpg, ,,/002.jpg,image,"[""webgazer""]","[""1.2.0""]","{""#jspsych-image-keyboard-response-stimulus"":{""x"":602.5,""y"":-12,""width"":700,""height"":933,""top"":-12,""right"":1302.5,""bottom"":921,""left"":602.5}}",900,28,417
,,,,,image-keyboard-response,7,2.1.0,31366,2840.0,/002.jpg, ,,/002.jpg,image,"[""webgazer""]","[""1.2.0""]","{""#jspsych-image-keyboard-response-stimulus"":{""x"":602.5,""y"":-12,""width"":700,""height"":933,""top"":-12,""right"":1302.5,""bottom"":921,""left"":602.5}}",925,48,451
,,,,,image-keyboard-response,7,2.1.0,31366,2840.0,/002.jpg, ,,/002.jpg,image,"[""webgazer""]","[""1.2.0""]","{""#jspsych-image-keyboard-response-stimulus"":{""x"":602.5,""y"":-12,""width"":700,""height"":933,""top"":-12,""right"":1302.5,""bottom"":921,""left"":602.5}}",930,70,484
,,,,,image-keyboard-response,7,2.1.0,31366,2840.0,/002.jpg, ,,/002.jpg,image,"[""webgazer""]","[""1.2.0""]","{""#jspsych-image-keyboard-response-stimulus"":{""x"":602.5,""y"":-12,""width"":700,""height"":933,""top"":-12,""right"":1302.5,""bottom"":921,""left"":602.5}}",951,88,518
,,,,,image-keyboard-response,7,2.1.0,31366,2840.0,/002.jpg, ,,/002.jpg,image,"[""webgazer""]","[""1.2.0""]","{""#jspsych-image-keyboard-response-stimulus"":{""x"":602.5,""y"":-12,""width"":700,""height"":933,""top"":-12,""right"":1302.5,""bottom"":921,""left"":602.5}}",968,110,552
,,,,,image-keyboard-response,7,2.1.0,31366,2840.0,/002.jpg, ,,/002.jpg,image,"[""webgazer""]","[""1.2.0""]","{""#jspsych-image-keyboard-response-stimulus"":{""x"":602.5,""y"":-12,""width"":700,""height"":933,""top"":-12,""right"":1302.5,""bottom"":921,""left"":602.5}}",995,122,586
,,,,,image-keyboard-response,7,2.1.0,31366,2840.0,/002.jpg, ,,/002.jpg,image,"[""webgazer""]","[""1.2.0""]","{""#jspsych-image-keyboard-response-stimulus"":{""x"":602.5,""y"":-12,""width"":700,""height"":933,""top"":-12,""right"":1302.5,""bottom"":921,""left"":602.5}}",1023,127,620
,,,,,image-keyboard-response,7,2.1.0,31366,2840.0,/002.jpg, ,,/002.jpg,image,"[""webgazer""]","[""1.2.0""]","{""#jspsych-image-keyboard-response-stimulus"":{""x"":602.5,""y"":-12,""width"":700,""height"":933,""top"":-12,""right"":1302.5,""bottom"":921,""left"":602.5}}",1046,131,654
,,,,,image-keyboard-response,7,2.1.0,31366,2840.0,/002.jpg, ,,/002.jpg,image,"[""webgazer""]","[""1.2.0""]","{""#jspsych-image-keyboard-response-stimulus"":{""x"":602.5,""y"":-12,""width"":700,""height"":933,""top"":-12,""right"":1302.5,""bottom"":921,""left"":602.5}}",1064,133,689
,,,,,image-keyboard-response,7,2.1.0,31366,2840.0,/002.jpg, ,,/002.jpg,image,"[""webgazer""]","[""1.2.0""]","{""#jspsych-image-keyboard-response-stimulus"":{""x"":602.5,""y"":-12,""width"":700,""height"":933,""top"":-12,""right"":1302.5,""bottom"":921,""left"":602.5}}",1079,133,722
,,,,,image-keyboard-response,7,2.1.0,31366,2840.0,/002.jpg, ,,/002.jpg,image,"[""webgazer""]","[""1.2.0""]","{""#jspsych-image-keyboard-response-stimulus"":{""x"":602.5,""y"":-12,""width"":700,""height"":933,""top"":-12,""right"":1302.5,""bottom"":921,""left"":602.5}}",1085,134,757
,,,,,image-keyboard-response,7,2.1.0,31366,2840.0,/002.jpg, ,,/002.jpg,image,"[""webgazer""]","[""1.2.0""]","{""#jspsych-image-keyboard-response-stimulus"":{""x"":602.5,""y"":-12,""width"":700,""height"":933,""top"":-12,""right"":1302.5,""bottom"":921,""left"":602.5}}",1072,128,791
,,,,,image-keyboard-response,7,2.1.0,31366,2840.0,/002.jpg, ,,/002.jpg,image,"[""webgazer""]","[""1.2.0""]","{""#jspsych-image-keyboard-response-stimulus"":{""x"":602.5,""y"":-12,""width"":700,""height"":933,""top"":-12,""right"":1302.5,""bottom"":921,""left"":602.5}}",1039,128,823
,,,,,image-keyboard-response,7,2.1.0,31366,2840.0,/002.jpg, ,,/002.jpg,image,"[""webgazer""]","[""1.2.0""]","{""#jspsych-image-keyboard-response-stimulus"":{""x"":602.5,""y"":-12,""width"":700,""height"":933,""top"":-12,""right"":1302.5,""bottom"":921,""left"":602.5}}",998,124,857
,,,,,image-keyboard-response,7,2.1.0,31366,2840.0,/002.jpg, ,,/002.jpg,image,"[""webgazer""]","[""1.2.0""]","{""#jspsych-image-keyboard-response-stimulus"":{""x"":602.5,""y"":-12,""width"":700,""height"":933,""top"":-12,""right"":1302.5,""bottom"":921,""left"":602.5}}",959,117,892
,,,,,image-keyboard-response,7,2.1.0,31366,2840.0,/002.jpg, ,,/002.jpg,image,"[""webgazer""]","[""1.2.0""]","{""#jspsych-image-keyboard-response-stimulus"":{""x"":602.5,""y"":-12,""width"":700,""height"":933,""top"":-12,""right"":1302.5,""bottom"":921,""left"":602.5}}",930,115,926
,,,,,image-keyboard-response,7,2.1.0,31366,2840.0,/002.jpg, ,,/002.jpg,image,"[""webgazer""]","[""1.2.0""]","{""#jspsych-image-keyboard-response-stimulus"":{""x"":602.5,""y"":-12,""width"":700,""height"":933,""top"":-12,""right"":1302.5,""bottom"":921,""left"":602.5}}",855,132,960
,,,,,image-keyboard-response,7,2.1.0,31366,2840.0,/002.jpg, ,,/002.jpg,image,"[""webgazer""]","[""1.2.0""]","{""#jspsych-image-keyboard-response-stimulus"":{""x"":602.5,""y"":-12,""width"":700,""height"":933,""top"":-12,""right"":1302.5,""bottom"":921,""left"":602.5}}",799,162,994
,,,,,image-keyboard-response,7,2.1.0,31366,2840.0,/002.jpg, ,,/002.jpg,image,"[""webgazer""]","[""1.2.0""]","{""#jspsych-image-keyboard-response-stimulus"":{""x"":602.5,""y"":-12,""width"":700,""height"":933,""top"":-12,""right"":1302.5,""bottom"":921,""left"":602.5}}",772,186,1028
,,,,,image-keyboard-response,7,2.1.0,31366,2840.0,/002.jpg, ,,/002.jpg,image,"[""webgazer""]","[""1.2.0""]","{""#jspsych-image-keyboard-response-stimulus"":{""x"":602.5,""y"":-12,""width"":700,""height"":933,""top"":-12,""right"":1302.5,""bottom"":921,""left"":602.5}}",752,200,1062
,,,,,image-keyboard-response,7,2.1.0,31366,2840.0,/002.jpg, ,,/002.jpg,image,"[""webgazer""]","[""1.2.0""]","{""#jspsych-image-keyboard-response-stimulus"":{""x"":602.5,""y"":-12,""width"":700,""height"":933,""top"":-12,""right"":1302.5,""bottom"":921,""left"":602.5}}",740,216,1096
,,,,,image-keyboard-response,7,2.1.0,31366,2840.0,/002.jpg, ,,/002.jpg,image,"[""webgazer""]","[""1.2.0""]","{""#jspsych-image-keyboard-response-stimulus"":{""x"":602.5,""y"":-12,""width"":700,""height"":933,""top"":-12,""right"":1302.5,""bottom"":921,""left"":602.5}}",731,222,1130
,,,,,image-keyboard-response,7,2.1.0,31366,2840.0,/002.jpg, ,,/002.jpg,image,"[""webgazer""]","[""1.2.0""]","{""#jspsych-image-keyboard-response-stimulus"":{""x"":602.5,""y"":-12,""width"":700,""height"":933,""top"":-12,""right"":1302.5,""bottom"":921,""left"":602.5}}",675,236,1164
,,,,,image-keyboard-response,7,2.1.0,31366,2840.0,/002.jpg, ,,/002.jpg,image,"[""webgazer""]","[""1.2.0""]","{""#jspsych-image-keyboard-response-stimulus"":{""x"":602.5,""y"":-12,""width"":700,""height"":933,""top"":-12,""right"":1302.5,""bottom"":921,""left"":602.5}}",631,241,1197
,,,,,image-keyboard-response,7,2.1.0,31366,2840.0,/002.jpg, ,,/002.jpg,image,"[""webgazer""]","[""1.2.0""]","{""#jspsych-image-keyboard-response-stimulus"":{""x"":602.5,""y"":-12,""width"":700,""height"":933,""top"":-12,""right"":1302.5,""bottom"":921,""left"":602.5}}",584,231,1232
,,,,,image-keyboard-response,7,2.1.0,31366,2840.0,/002.jpg, ,,/002.jpg,image,"[""webgazer""]","[""1.2.0""]","{""#jspsych-image-keyboard-response-stimulus"":{""x"":602.5,""y"":-12,""width"":700,""height"":933,""top"":-12,""right"":1302.5,""bottom"":921,""left"":602.5}}",557,232,1266
,,,,,image-keyboard-response,7,2.1.0,31366,2840.0,/002.jpg, ,,/002.jpg,image,"[""webgazer""]","[""1.2.0""]","{""#jspsych-image-keyboard-response-stimulus"":{""x"":602.5,""y"":-12,""width"":700,""height"":933,""top"":-12,""right"":1302.5,""bottom"":921,""left"":602.5}}",579,241,1300
,,,,,image-keyboard-response,7,2.1.0,31366,2840.0,/002.jpg, ,,/002.jpg,image,"[""webgazer""]","[""1.2.0""]","{""#jspsych-image-keyboard-response-stimulus"":{""x"":602.5,""y"":-12,""width"":700,""height"":933,""top"":-12,""right"":1302.5,""bottom"":921,""left"":602.5}}",547,256,1335
,,,,,image-keyboard-response,7,2.1.0,31366,2840.0,/002.jpg, ,,/002.jpg,image,"[""webgazer""]","[""1.2.0""]","{""#jspsych-image-keyboard-response-stimulus"":{""x"":602.5,""y"":-12,""width"":700,""height"":933,""top"":-12,""right"":1302.5,""bottom"":921,""left"":602.5}}",667,388,1368
,,,,,image-keyboard-response,7,2.1.0,31366,2840.0,/002.jpg, ,,/002.jpg,image,"[""webgazer""]","[""1.2.0""]","{""#jspsych-image-keyboard-response-stimulus"":{""x"":602.5,""y"":-12,""width"":700,""height"":933,""top"":-12,""right"":1302.5,""bottom"":921,""left"":602.5}}",783,605,1402
,,,,,image-keyboard-response,7,2.1.0,31366,2840.0,/002.jpg, ,,/002.jpg,image,"[""webgazer""]","[""1.2.0""]","{""#jspsych-image-keyboard-response-stimulus"":{""x"":602.5,""y"":-12,""width"":700,""height"":933,""top"":-12,""right"":1302.5,""bottom"":921,""left"":602.5}}",833,785,1436
,,,,,image-keyboard-response,7,2.1.0,31366,2840.0,/002.jpg, ,,/002.jpg,image,"[""webgazer""]","[""1.2.0""]","{""#jspsych-image-keyboard-response-stimulus"":{""x"":602.5,""y"":-12,""width"":700,""height"":933,""top"":-12,""right"":1302.5,""bottom"":921,""left"":602.5}}",884,900,1470
,,,,,image-keyboard-response,7,2.1.0,31366,2840.0,/002.jpg, ,,/002.jpg,image,"[""webgazer""]","[""1.2.0""]","{""#jspsych-image-keyboard-response-stimulus"":{""x"":602.5,""y"":-12,""width"":700,""height"":933,""top"":-12,""right"":1302.5,""bottom"":921,""left"":602.5}}",925,977,1505
,,,,,image-keyboard-response,7,2.1.0,31366,2840.0,/002.jpg, ,,/002.jpg,image,"[""webgazer""]","[""1.2.0""]","{""#jspsych-image-keyboard-response-stimulus"":{""x"":602.5,""y"":-12,""width"":700,""height"":933,""top"":-12,""right"":1302.5,""bottom"":921,""left"":602.5}}",932,1012,1538
,,,,,image-keyboard-response,7,2.1.0,31366,2840.0,/002.jpg, ,,/002.jpg,image,"[""webgazer""]","[""1.2.0""]","{""#jspsych-image-keyboard-response-stimulus"":{""x"":602.5,""y"":-12,""width"":700,""height"":933,""top"":-12,""right"":1302.5,""bottom"":921,""left"":602.5}}",968,996,1572
,,,,,image-keyboard-response,7,2.1.0,31366,2840.0,/002.jpg, ,,/002.jpg,image,"[""webgazer""]","[""1.2.0""]","{""#jspsych-image-keyboard-response-stimulus"":{""x"":602.5,""y"":-12,""width"":700,""height"":933,""top"":-12,""right"":1302.5,""bottom"":921,""left"":602.5}}",991,1019,1606
,,,,,image-keyboard-response,7,2.1.0,31366,2840.0,/002.jpg, ,,/002.jpg,image,"[""webgazer""]","[""1.2.0""]","{""#jspsych-image-keyboard-response-stimulus"":{""x"":602.5,""y"":-12,""width"":700,""height"":933,""top"":-12,""right"":1302.5,""bottom"":921,""left"":602.5}}",982,966,1639
,,,,,image-keyboard-response,7,2.1.0,31366,2840.0,/002.jpg, ,,/002.jpg,image,"[""webgazer""]","[""1.2.0""]","{""#jspsych-image-keyboard-response-stimulus"":{""x"":602.5,""y"":-12,""width"":700,""height"":933,""top"":-12,""right"":1302.5,""bottom"":921,""left"":602.5}}",962,948,1674
,,,,,image-keyboard-response,7,2.1.0,31366,2840.0,/002.jpg, ,,/002.jpg,image,"[""webgazer""]","[""1.2.0""]","{""#jspsych-image-keyboard-response-stimulus"":{""x"":602.5,""y"":-12,""width"":700,""height"":933,""top"":-12,""right"":1302.5,""bottom"":921,""left"":602.5}}",932,902,1707
,,,,,image-keyboard-response,7,2.1.0,31366,2840.0,/002.jpg, ,,/002.jpg,image,"[""webgazer""]","[""1.2.0""]","{""#jspsych-image-keyboard-response-stimulus"":{""x"":602.5,""y"":-12,""width"":700,""height"":933,""top"":-12,""right"":1302.5,""bottom"":921,""left"":602.5}}",880,854,1742
,,,,,image-keyboard-response,7,2.1.0,31366,2840.0,/002.jpg, ,,/002.jpg,image,"[""webgazer""]","[""1.2.0""]","{""#jspsych-image-keyboard-response-stimulus"":{""x"":602.5,""y"":-12,""width"":700,""height"":933,""top"":-12,""right"":1302.5,""bottom"":921,""left"":602.5}}",908,811,1776
,,,,,image-keyboard-response,7,2.1.0,31366,2840.0,/002.jpg, ,,/002.jpg,image,"[""webgazer""]","[""1.2.0""]","{""#jspsych-image-keyboard-response-stimulus"":{""x"":602.5,""y"":-12,""width"":700,""height"":933,""top"":-12,""right"":1302.5,""bottom"":921,""left"":602.5}}",899,753,1811
,,,,,image-keyboard-response,7,2.1.0,31366,2840.0,/002.jpg, ,,/002.jpg,image,"[""webgazer""]","[""1.2.0""]","{""#jspsych-image-keyboard-response-stimulus"":{""x"":602.5,""y"":-12,""width"":700,""height"":933,""top"":-12,""right"":1302.5,""bottom"":921,""left"":602.5}}",926,594,1845
,,,,,image-keyboard-response,7,2.1.0,31366,2840.0,/002.jpg, ,,/002.jpg,image,"[""webgazer""]","[""1.2.0""]","{""#jspsych-image-keyboard-response-stimulus"":{""x"":602.5,""y"":-12,""width"":700,""height"":933,""top"":-12,""right"":1302.5,""bottom"":921,""left"":602.5}}",918,498,1879
,,,,,image-keyboard-response,7,2.1.0,31366,2840.0,/002.jpg, ,,/002.jpg,image,"[""webgazer""]","[""1.2.0""]","{""#jspsych-image-keyboard-response-stimulus"":{""x"":602.5,""y"":-12,""width"":700,""height"":933,""top"":-12,""right"":1302.5,""bottom"":921,""left"":602.5}}",914,409,1912
,,,,,image-keyboard-response,7,2.1.0,31366,2840.0,/002.jpg, ,,/002.jpg,image,"[""webgazer""]","[""1.2.0""]","{""#jspsych-image-keyboard-response-stimulus"":{""x"":602.5,""y"":-12,""width"":700,""height"":933,""top"":-12,""right"":1302.5,""bottom"":921,""left"":602.5}}",925,294,1946
,,,,,image-keyboard-response,7,2.1.0,31366,2840.0,/002.jpg, ,,/002.jpg,image,"[""webgazer""]","[""1.2.0""]","{""#jspsych-image-keyboard-response-stimulus"":{""x"":602.5,""y"":-12,""width"":700,""height"":933,""top"":-12,""right"":1302.5,""bottom"":921,""left"":602.5}}",864,237,1979
,,,,,image-keyboard-response,7,2.1.0,31366,2840.0,/002.jpg, ,,/002.jpg,image,"[""webgazer""]","[""1.2.0""]","{""#jspsych-image-keyboard-response-stimulus"":{""x"":602.5,""y"":-12,""width"":700,""height"":933,""top"":-12,""right"":1302.5,""bottom"":921,""left"":602.5}}",807,186,2013
,,,,,image-keyboard-response,7,2.1.0,31366,2840.0,/002.jpg, ,,/002.jpg,image,"[""webgazer""]","[""1.2.0""]","{""#jspsych-image-keyboard-response-stimulus"":{""x"":602.5,""y"":-12,""width"":700,""height"":933,""top"":-12,""right"":1302.5,""bottom"":921,""left"":602.5}}",739,145,2048
,,,,,image-keyboard-response,7,2.1.0,31366,2840.0,/002.jpg, ,,/002.jpg,image,"[""webgazer""]","[""1.2.0""]","{""#jspsych-image-keyboard-response-stimulus"":{""x"":602.5,""y"":-12,""width"":700,""height"":933,""top"":-12,""right"":1302.5,""bottom"":921,""left"":602.5}}",726,127,2081
,,,,,image-keyboard-response,7,2.1.0,31366,2840.0,/002.jpg, ,,/002.jpg,image,"[""webgazer""]","[""1.2.0""]","{""#jspsych-image-keyboard-response-stimulus"":{""x"":602.5,""y"":-12,""width"":700,""height"":933,""top"":-12,""right"":1302.5,""bottom"":921,""left"":602.5}}",679,115,2117
,,,,,image-keyboard-response,7,2.1.0,31366,2840.0,/002.jpg, ,,/002.jpg,image,"[""webgazer""]","[""1.2.0""]","{""#jspsych-image-keyboard-response-stimulus"":{""x"":602.5,""y"":-12,""width"":700,""height"":933,""top"":-12,""right"":1302.5,""bottom"":921,""left"":602.5}}",640,109,2149
,,,,,image-keyboard-response,7,2.1.0,31366,2840.0,/002.jpg, ,,/002.jpg,image,"[""webgazer""]","[""1.2.0""]","{""#jspsych-image-keyboard-response-stimulus"":{""x"":602.5,""y"":-12,""width"":700,""height"":933,""top"":-12,""right"":1302.5,""bottom"":921,""left"":602.5}}",625,158,2184
,,,,,image-keyboard-response,7,2.1.0,31366,2840.0,/002.jpg, ,,/002.jpg,image,"[""webgazer""]","[""1.2.0""]","{""#jspsych-image-keyboard-response-stimulus"":{""x"":602.5,""y"":-12,""width"":700,""height"":933,""top"":-12,""right"":1302.5,""bottom"":921,""left"":602.5}}",712,275,2218
,,,,,image-keyboard-response,7,2.1.0,31366,2840.0,/002.jpg, ,,/002.jpg,image,"[""webgazer""]","[""1.2.0""]","{""#jspsych-image-keyboard-response-stimulus"":{""x"":602.5,""y"":-12,""width"":700,""height"":933,""top"":-12,""right"":1302.5,""bottom"":921,""left"":602.5}}",800,434,2252
,,,,,image-keyboard-response,7,2.1.0,31366,2840.0,/002.jpg, ,,/002.jpg,image,"[""webgazer""]","[""1.2.0""]","{""#jspsych-image-keyboard-response-stimulus"":{""x"":602.5,""y"":-12,""width"":700,""height"":933,""top"":-12,""right"":1302.5,""bottom"":921,""left"":602.5}}",816,545,2286
,,,,,image-keyboard-response,7,2.1.0,31366,2840.0,/002.jpg, ,,/002.jpg,image,"[""webgazer""]","[""1.2.0""]","{""#jspsych-image-keyboard-response-stimulus"":{""x"":602.5,""y"":-12,""width"":700,""height"":933,""top"":-12,""right"":1302.5,""bottom"":921,""left"":602.5}}",822,617,2320
,,,,,image-keyboard-response,7,2.1.0,31366,2840.0,/002.jpg, ,,/002.jpg,image,"[""webgazer""]","[""1.2.0""]","{""#jspsych-image-keyboard-response-stimulus"":{""x"":602.5,""y"":-12,""width"":700,""height"":933,""top"":-12,""right"":1302.5,""bottom"":921,""left"":602.5}}",849,712,2354
,,,,,image-keyboard-response,7,2.1.0,31366,2840.0,/002.jpg, ,,/002.jpg,image,"[""webgazer""]","[""1.2.0""]","{""#jspsych-image-keyboard-response-stimulus"":{""x"":602.5,""y"":-12,""width"":700,""height"":933,""top"":-12,""right"":1302.5,""bottom"":921,""left"":602.5}}",900,776,2387
,,,,,image-keyboard-response,7,2.1.0,31366,2840.0,/002.jpg, ,,/002.jpg,image,"[""webgazer""]","[""1.2.0""]","{""#jspsych-image-keyboard-response-stimulus"":{""x"":602.5,""y"":-12,""width"":700,""height"":933,""top"":-12,""right"":1302.5,""bottom"":921,""left"":602.5}}",922,816,2422
,,,,,image-keyboard-response,7,2.1.0,31366,2840.0,/002.jpg, ,,/002.jpg,image,"[""webgazer""]","[""1.2.0""]","{""#jspsych-image-keyboard-response-stimulus"":{""x"":602.5,""y"":-12,""width"":700,""height"":933,""top"":-12,""right"":1302.5,""bottom"":921,""left"":602.5}}",912,861,2456
,,,,,image-keyboard-response,7,2.1.0,31366,2840.0,/002.jpg, ,,/002.jpg,image,"[""webgazer""]","[""1.2.0""]","{""#jspsych-image-keyboard-response-stimulus"":{""x"":602.5,""y"":-12,""width"":700,""height"":933,""top"":-12,""right"":1302.5,""bottom"":921,""left"":602.5}}",890,899,2490
,,,,,image-keyboard-response,7,2.1.0,31366,2840.0,/002.jpg, ,,/002.jpg,image,"[""webgazer""]","[""1.2.0""]","{""#jspsych-image-keyboard-response-stimulus"":{""x"":602.5,""y"":-12,""width"":700,""height"":933,""top"":-12,""right"":1302.5,""bottom"":921,""left"":602.5}}",901,908,2523
,,,,,image-keyboard-response,7,2.1.0,31366,2840.0,/002.jpg, ,,/002.jpg,image,"[""webgazer""]","[""1.2.0""]","{""#jspsych-image-keyboard-response-stimulus"":{""x"":602.5,""y"":-12,""width"":700,""height"":933,""top"":-12,""right"":1302.5,""bottom"":921,""left"":602.5}}",909,932,2557
,,,,,image-keyboard-response,7,2.1.0,31366,2840.0,/002.jpg, ,,/002.jpg,image,"[""webgazer""]","[""1.2.0""]","{""#jspsych-image-keyboard-response-stimulus"":{""x"":602.5,""y"":-12,""width"":700,""height"":933,""top"":-12,""right"":1302.5,""bottom"":921,""left"":602.5}}",889,890,2592
,,,,,image-keyboard-response,7,2.1.0,31366,2840.0,/002.jpg, ,,/002.jpg,image,"[""webgazer""]","[""1.2.0""]","{""#jspsych-image-keyboard-response-stimulus"":{""x"":602.5,""y"":-12,""width"":700,""height"":933,""top"":-12,""right"":1302.5,""bottom"":921,""left"":602.5}}",886,857,2626
,,,,,image-keyboard-response,7,2.1.0,31366,2840.0,/002.jpg, ,,/002.jpg,image,"[""webgazer""]","[""1.2.0""]","{""#jspsych-image-keyboard-response-stimulus"":{""x"":602.5,""y"":-12,""width"":700,""height"":933,""top"":-12,""right"":1302.5,""bottom"":921,""left"":602.5}}",874,803,2660
,,,,,image-keyboard-response,7,2.1.0,31366,2840.0,/002.jpg, ,,/002.jpg,image,"[""webgazer""]","[""1.2.0""]","{""#jspsych-image-keyboard-response-stimulus"":{""x"":602.5,""y"":-12,""width"":700,""height"":933,""top"":-12,""right"":1302.5,""bottom"":921,""left"":602.5}}",860,782,2694
,,,,,image-keyboard-response,7,2.1.0,31366,2840.0,/002.jpg, ,,/002.jpg,image,"[""webgazer""]","[""1.2.0""]","{""#jspsych-image-keyboard-response-stimulus"":{""x"":602.5,""y"":-12,""width"":700,""height"":933,""top"":-12,""right"":1302.5,""bottom"":921,""left"":602.5}}",870,747,2727
,,,,,image-keyboard-response,7,2.1.0,31366,2840.0,/002.jpg, ,,/002.jpg,image,"[""webgazer""]","[""1.2.0""]","{""#jspsych-image-keyboard-response-stimulus"":{""x"":602.5,""y"":-12,""width"":700,""height"":933,""top"":-12,""right"":1302.5,""bottom"":921,""left"":602.5}}",842,629,2761
,,,,,image-keyboard-response,7,2.1.0,31366,2840.0,/002.jpg, ,,/002.jpg,image,"[""webgazer""]","[""1.2.0""]","{""#jspsych-image-keyboard-response-stimulus"":{""x"":602.5,""y"":-12,""width"":700,""height"":933,""top"":-12,""right"":1302.5,""bottom"":921,""left"":602.5}}",838,533,2796
